{
  "resourceType": "bundle",
  "type": "transaction",
  "entry": [
    {
      "resource": {
        "resourceType": "Patient",
        "id": "0"
      },
      "request": {
        "method": "PUT",
        "url": "Patient/0"
      }
    },
    {
      "resource": {
        "resourceType": "Patient",
        "id": "1"
      },
      "request": {
        "method": "PUT",
        "url": "Patient/1"
      }
    },
    {
      "resource": {
        "resourceType": "Observation",
        "id": "0",
        "code": {
          "coding": [
            {
              "system": "http://loinc.org",
              "code": "39156-5"
            }
          ]
        },
        "subject": {
          "reference": "Patient/0"
        }
      },
      "request": {
        "method": "PUT",
        "url": "Observation/0"
      }
    },
    {
      "resource": {
        "resourceType": "Observation",
        "id": "1",
        "code": {
          "coding": [
            {
              "system": "http://loinc.org",
              "code": "8302-2"
            }
          ]
        },
        "subject": {
          "reference": "Patient/1"
        }
      },
      "request": {
        "method": "PUT",
        "url": "Observation/1"
      }
    },
    {
      "resource": {
        "resourceType": "Specimen",
        "id": "0",
        "subject": {
          "reference": "Patient/0"
        }
      },
      "request": {
        "method": "PUT",
        "url": "Specimen/0"
      }
    },
    {
      "resource": {
        "resourceType": "Specimen",
        "id": "1",
        "subject": {
          "reference": "Patient/1"
        }
      },
      "request": {
        "method": "PUT",
        "url": "Specimen/1"
      }
    },
    {
      "resource": {
        "resourceType": "Measure",
        "id": "0",
        "url": "0",
        "status": "active",
        "subjectCodeableConcept": {
          "coding": [
            {
              "system": "http://hl7.org/fhir/resource-types",
              "code": "Specimen"
            }
          ]
        },
        "library": [
          "0"
        ],
        "scoring": {
          "coding": [
            {
              "system": "http://terminology.hl7.org/CodeSystem/measure-scoring",
              "code": "cohort"
            }
          ]
        },
        "group": [
          {
            "population": [
              {
                "code": {
                  "coding": [
                    {
                      "system": "http://terminology.hl7.org/CodeSystem/measure-population",
                      "code": "initial-population"
                    }
                  ]
                },
                "criteria": {
                  "language": "text/cql",
                  "expression": "InInitialPopulation"
                }
              }
            ]
          }
        ]
      },
      "request": {
        "method": "PUT",
        "url": "Measure/0"
      }
    }
  ]
}
