{
  "resourceType": "bundle",
  "type": "transaction",
  "entry": [
    {
      "resource": {
        "resourceType": "Patient",
        "id": "0"
      },
      "request": {
        "method": "PUT",
        "url": "Patient/0"
      }
    },
    {
      "resource": {
        "resourceType": "Patient",
        "id": "1"
      },
      "request": {
        "method": "PUT",
        "url": "Patient/1"
      }
    },
    {
      "resource": {
        "resourceType": "Specimen",
        "id": "0",
        "subject": {
          "reference": "Patient/0"
        },
        "extension": [
          {
            "url": "https://fhir.bbmri.de/StructureDefinition/Custodian",
            "valueReference": {
              "reference": "Organization/collection-0"
            }
          }
        ]
      },
      "request": {
        "method": "PUT",
        "url": "Specimen/0"
      }
    },
    {
      "resource": {
        "resourceType": "Specimen",
        "id": "1",
        "subject": {
          "reference": "Patient/1"
        },
        "extension": [
          {
            "url": "https://fhir.bbmri.de/StructureDefinition/Custodian",
            "valueReference": {
              "reference": "Organization/collection-1"
            }
          }
        ]
      },
      "request": {
        "method": "PUT",
        "url": "Specimen/1"
      }
    },
    {
      "resource": {
        "id": "collection-0",
        "resourceType": "Organization",
        "identifier": [
          {
            "system": "http://www.bbmri-eric.eu",
            "value": "collection-0"
          }
        ]
      },
      "request": {
        "method": "PUT",
        "url": "Organization/collection-0"
      }
    },
    {
      "resource": {
        "id": "collection-1",
        "resourceType": "Organization",
        "identifier": [
          {
            "system": "http://www.bbmri-eric.eu",
            "value": "collection-1"
          }
        ]
      },
      "request": {
        "method": "PUT",
        "url": "Organization/collection-1"
      }
    },
    {
      "resource": {
        "resourceType": "Measure",
        "id": "0",
        "url": "0",
        "status": "active",
        "subjectCodeableConcept": {
          "coding": [
            {
              "system": "http://hl7.org/fhir/resource-types",
              "code": "Specimen"
            }
          ]
        },
        "library": [
          "0"
        ],
        "scoring": {
          "coding": [
            {
              "system": "http://terminology.hl7.org/CodeSystem/measure-scoring",
              "code": "cohort"
            }
          ]
        },
        "group": [
          {
            "population": [
              {
                "code": {
                  "coding": [
                    {
                      "system": "http://terminology.hl7.org/CodeSystem/measure-population",
                      "code": "initial-population"
                    }
                  ]
                },
                "criteria": {
                  "language": "text/cql",
                  "expression": "InInitialPopulation"
                }
              }
            ],
            "stratifier": [
              {
                "code": {
                  "text": "collection"
                },
                "criteria": {
                  "language": "text/cql",
                  "expression": "Collection"
                }
              }
            ]
          }
        ]
      },
      "request": {
        "method": "PUT",
        "url": "Measure/0"
      }
    }
  ]
}
