{
  "resourceType": "Bundle",
  "type": "transaction",
  "entry": [
    {
      "resource": {
        "resourceType": "Patient",
        "id": "0",
        "gender": "male",
        "birthDate": "2020"
      },
      "request": {
        "method": "PUT",
        "url": "Patient/0"
      }
    },
    {
      "resource": {
        "resourceType": "Patient",
        "id": "1"
      },
      "request": {
        "method": "PUT",
        "url": "Patient/1",
        "gender": "female",
        "birthDate": "2019"
      }
    },
    {
      "resource": {
        "resourceType": "Patient",
        "id": "2",
        "gender": "male",
        "birthDate": "2019"
      },
      "request": {
        "method": "PUT",
        "url": "Patient/2"
      }
    },
    {
      "resource": {
        "resourceType": "Patient",
        "id": "3",
        "gender": "female",
        "birthDate": "2018"
      },
      "request": {
        "method": "PUT",
        "url": "Patient/3"
      }
    },
    {
      "resource": {
        "resourceType": "Patient",
        "id": "4",
        "gender": "male",
        "birthDate": "2000"
      },
      "request": {
        "method": "PUT",
        "url": "Patient/4"
      }
    },
    {
      "resource": {
        "resourceType": "Condition",
        "id": "0",
        "code": {
          "coding": [
            {
              "system": "http://fhir.de/CodeSystem/bfarm/icd-10-gm",
              "code": "E10.0-"
            }
          ]
        },
        "subject": {
          "reference": "Patient/0"
        },
        "encounter": {
          "reference": "Encounter/0"
        }
      },
      "request": {
        "method": "PUT",
        "url": "Condition/0"
      }
    },
    {
      "resource": {
        "resourceType": "Condition",
        "id": "3",
        "code": {
          "coding": [
            {
              "system": "http://fhir.de/CodeSystem/bfarm/icd-10-gm",
              "code": "E10.11"
            }
          ]
        },
        "subject": {
          "reference": "Patient/3"
        },
        "encounter": {
          "reference": "Encounter/3"
        }
      },
      "request": {
        "method": "PUT",
        "url": "Condition/3"
      }
    },
    {
      "resource": {
        "resourceType": "Encounter",
        "id": "0",
        "type": {
          "coding": [
            {
              "system": "http://fhir.de/CodeSystem/kontaktart-de",
              "code": "normalstationaer"
            }
          ]
        },
        "subject": {
          "reference": "Patient/0"
        },
        "period": {
          "start": "2021-04-01",
          "end": "2021-04-11"
        }
      },
      "request": {
        "method": "PUT",
        "url": "Encounter/0"
      }
    },
    {
      "resource": {
        "resourceType": "Encounter",
        "id": "1",
        "type": {
          "coding": [
            {
              "system": "http://fhir.de/CodeSystem/kontaktart-de",
              "code": "normalstationaer"
            }
          ]
        },
        "subject": {
          "reference": "Patient/1"
        },
        "period": {
          "start": "2022-04-01",
          "end": "2022-04-11"
        }
      },
      "request": {
        "method": "PUT",
        "url": "Encounter/1"
      }
    },
    {
      "resource": {
        "resourceType": "Encounter",
        "id": "3",
        "type": {
          "coding": [
            {
              "system": "http://fhir.de/CodeSystem/kontaktart-de",
              "code": "normalstationaer"
            }
          ]
        },
        "subject": {
          "reference": "Patient/3"
        },
        "period": {
          "start": "2021-07-21",
          "end": "2021-08-10"
        }
      },
      "request": {
        "method": "PUT",
        "url": "Encounter/3"
      }
    },
    {
      "resource": {
        "resourceType": "Measure",
        "id": "0",
        "url": "0",
        "status": "active",
        "subjectCodeableConcept": {
          "coding": [
            {
              "system": "http://hl7.org/fhir/resource-types",
              "code": "Patient"
            }
          ]
        },
        "library": [
          "0"
        ],
        "scoring": {
          "coding": [
            {
              "system": "http://terminology.hl7.org/CodeSystem/measure-scoring",
              "code": "cohort"
            }
          ]
        },
        "group": [
          {
            "population": [
              {
                "code": {
                  "coding": [
                    {
                      "system": "http://terminology.hl7.org/CodeSystem/measure-population",
                      "code": "initial-population"
                    }
                  ]
                },
                "criteria": {
                  "language": "text/cql-identifier",
                  "expression": "InInitialPopulation"
                }
              }
            ]
          }
        ]
      },
      "request": {
        "method": "PUT",
        "url": "Measure/0"
      }
    }
  ]
}
