{
  "resourceType": "Bundle",
  "type": "transaction",
  "entry": [
    {
      "fullUrl": "Patient/1",
      "request": {
        "method": "PUT",
        "url": "Patient/1"
      },
      "resource": {
        "resourceType": "Patient",
        "id": "1",
        "meta": {
          "profile": [
            "https://fhir.bbmri.de/StructureDefinition/Patient"
          ]
        },
        "gender": "male",
        "birthDate": "1989-11-18"
      }
    },
    {
      "fullUrl": "Specimen/1-1",
      "request": {
        "method": "PUT",
        "url": "Specimen/1-1"
      },
      "resource": {
        "resourceType": "Specimen",
        "id": "1-1",
        "meta": {
          "profile": [
            "https://fhir.bbmri.de/StructureDefinition/Specimen"
          ]
        },
        "identifier": [
          {
            "system": "https://dktk.dkfz.de/fhir/NamingSystem/exliquid-specimen"
          }
        ],
        "subject": {
          "reference": "Patient/1"
        },
        "type": {
          "coding": [
            {
              "code": "blood-plasma",
              "system": "https://fhir.bbmri.de/CodeSystem/SampleMaterialType"
            }
          ]
        }
      }
    },
    {
      "fullUrl": "Specimen/1-2",
      "request": {
        "method": "PUT",
        "url": "Specimen/1-2"
      },
      "resource": {
        "resourceType": "Specimen",
        "id": "1-2",
        "meta": {
          "profile": [
            "https://fhir.bbmri.de/StructureDefinition/Specimen"
          ]
        },
        "identifier": [
          {
            "system": "https://dktk.dkfz.de/fhir/NamingSystem/exliquid-specimen"
          }
        ],
        "subject": {
          "reference": "Patient/1"
        },
        "type": {
          "coding": [
            {
              "code": "peripheral-blood-cells-vital",
              "system": "https://fhir.bbmri.de/CodeSystem/SampleMaterialType"
            }
          ]
        }
      }
    },
    {
      "fullUrl": "Specimen/1-3",
      "request": {
        "method": "PUT",
        "url": "Specimen/1-3"
      },
      "resource": {
        "resourceType": "Specimen",
        "id": "1-3",
        "meta": {
          "profile": [
            "https://fhir.bbmri.de/StructureDefinition/Specimen"
          ]
        },
        "identifier": [
          {
            "system": "https://dktk.dkfz.de/fhir/NamingSystem/exliquid-specimen"
          }
        ],
        "subject": {
          "reference": "Patient/1"
        },
        "type": {
          "coding": [
            {
              "code": "blood-plasma",
              "system": "https://fhir.bbmri.de/CodeSystem/SampleMaterialType"
            }
          ]
        }
      }
    },
    {
      "fullUrl": "Patient/2",
      "request": {
        "method": "PUT",
        "url": "Patient/2"
      },
      "resource": {
        "resourceType": "Patient",
        "id": "2",
        "meta": {
          "profile": [
            "https://fhir.bbmri.de/StructureDefinition/Patient"
          ]
        }
      }
    },
    {
      "fullUrl": "Specimen/2-1",
      "request": {
        "method": "PUT",
        "url": "Specimen/2-1"
      },
      "resource": {
        "resourceType": "Specimen",
        "id": "2-1",
        "meta": {
          "profile": [
            "https://fhir.bbmri.de/StructureDefinition/Specimen"
          ]
        },
        "identifier": [
          {
            "system": "https://dktk.dkfz.de/fhir/NamingSystem/exliquid-specimen"
          }
        ],
        "subject": {
          "reference": "Patient/2"
        },
        "type": {
          "coding": [
            {
              "code": "blood-plasma",
              "system": "https://fhir.bbmri.de/CodeSystem/SampleMaterialType"
            }
          ]
        }
      }
    },
    {
      "fullUrl": "Specimen/2-2",
      "request": {
        "method": "PUT",
        "url": "Specimen/2-2"
      },
      "resource": {
        "resourceType": "Specimen",
        "id": "2-2",
        "meta": {
          "profile": [
            "https://fhir.bbmri.de/StructureDefinition/Specimen"
          ]
        },
        "identifier": [
          {
            "system": "https://dktk.dkfz.de/fhir/NamingSystem/exliquid-specimen"
          }
        ],
        "subject": {
          "reference": "Patient/2"
        },
        "type": {
          "coding": [
            {
              "code": "peripheral-blood-cells-vital",
              "system": "https://fhir.bbmri.de/CodeSystem/SampleMaterialType"
            }
          ]
        }
      }
    },
    {
      "fullUrl": "Patient/3",
      "request": {
        "method": "PUT",
        "url": "Patient/3"
      },
      "resource": {
        "resourceType": "Patient",
        "id": "3",
        "meta": {
          "profile": [
            "https://fhir.bbmri.de/StructureDefinition/Patient"
          ]
        }
      }
    },
    {
      "fullUrl": "Specimen/3-1",
      "request": {
        "method": "PUT",
        "url": "Specimen/3-1"
      },
      "resource": {
        "resourceType": "Specimen",
        "id": "3-1",
        "meta": {
          "profile": [
            "https://fhir.bbmri.de/StructureDefinition/Specimen"
          ]
        },
        "identifier": [
          {
            "system": "https://dktk.dkfz.de/fhir/NamingSystem/exliquid-specimen"
          }
        ],
        "subject": {
          "reference": "Patient/3"
        },
        "type": {
          "coding": [
            {
              "code": "blood-plasma",
              "system": "https://fhir.bbmri.de/CodeSystem/SampleMaterialType"
            }
          ]
        }
      }
    },
    {
      "fullUrl": "Specimen/3-2",
      "request": {
        "method": "PUT",
        "url": "Specimen/3-2"
      },
      "resource": {
        "resourceType": "Specimen",
        "id": "3-2",
        "meta": {
          "profile": [
            "https://fhir.bbmri.de/StructureDefinition/Specimen"
          ]
        },
        "identifier": [
          {
            "system": "https://dktk.dkfz.de/fhir/NamingSystem/exliquid-specimen"
          }
        ],
        "subject": {
          "reference": "Patient/3"
        },
        "type": {
          "coding": [
            {
              "code": "peripheral-blood-cells-vital",
              "system": "https://fhir.bbmri.de/CodeSystem/SampleMaterialType"
            }
          ]
        }
      }
    },
    {
      "resource": {
        "resourceType": "Measure",
        "id": "0",
        "url": "0",
        "status": "active",
        "subjectCodeableConcept": {
          "coding": [
            {
              "system": "http://hl7.org/fhir/resource-types",
              "code": "Patient"
            }
          ]
        },
        "library": [
          "0"
        ],
        "scoring": {
          "coding": [
            {
              "system": "http://terminology.hl7.org/CodeSystem/measure-scoring",
              "code": "cohort"
            }
          ]
        },
        "group": [
          {
            "extension": [
              {
                "url": "http://hl7.org/fhir/us/cqfmeasures/StructureDefinition/cqfm-populationBasis",
                "valueCode": "Specimen"
              }
            ],
            "population": [
              {
                "code": {
                  "coding": [
                    {
                      "system": "http://terminology.hl7.org/CodeSystem/measure-population",
                      "code": "initial-population"
                    }
                  ]
                },
                "criteria": {
                  "language": "text/cql",
                  "expression": "InInitialPopulation"
                }
              }
            ],
            "stratifier": [
              {
                "code": {
                  "coding": [
                    {
                      "system": "https://dktk.dkfz.de/fhir/CodeSystem/exliquid-stratifier",
                      "code": "sample-type"
                    }
                  ]
                },
                "criteria": {
                  "language": "text/cql-identifier",
                  "expression": "SampleType"
                }
              }

            ]
          }
        ]
      },
      "request": {
        "method": "PUT",
        "url": "Measure/0"
      }
    }
  ]
}
