{
  "resourceType": "Bundle",
  "type": "transaction",
  "entry": [
    {
      "resource": {
        "resourceType": "Patient",
        "id": "0"
      },
      "request": {
        "method": "PUT",
        "url": "Patient/0"
      }
    },
    {
      "resource": {
        "resourceType": "Patient",
        "id": "1"
      },
      "request": {
        "method": "PUT",
        "url": "Patient/1"
      }
    },
    {
      "resource": {
        "resourceType": "Patient",
        "id": "2"
      },
      "request": {
        "method": "PUT",
        "url": "Patient/2"
      }
    },
    {
      "resource": {
        "resourceType": "MedicationStatement",
        "id": "0",
        "medicationReference": {
          "reference": "Medication/0"
        },
        "subject": {
          "reference": "Patient/0"
        }
      },
      "request": {
        "method": "PUT",
        "url": "MedicationStatement/0"
      }
    },
    {
      "resource": {
        "resourceType": "MedicationStatement",
        "id": "1",
        "medicationReference": {
          "reference": "Medication/1"
        },
        "subject": {
          "reference": "Patient/1"
        }
      },
      "request": {
        "method": "PUT",
        "url": "MedicationStatement/1"
      }
    },
    {
      "resource": {
        "resourceType": "Medication",
        "id": "0",
        "code": {
          "coding": [
            {
              "system": "http://fhir.de/CodeSystem/dimdi/atc",
              "code": "L01AX03"
            }
          ]
        }
      },
      "request": {
        "method": "PUT",
        "url": "Medication/0"
      }
    },
    {
      "resource": {
        "resourceType": "Medication",
        "id": "1",
        "code": {
          "coding": [
            {
              "system": "http://fhir.de/CodeSystem/dimdi/atc",
              "code": "L01AX03"
            }
          ]
        }
      },
      "request": {
        "method": "PUT",
        "url": "Medication/1"
      }
    },
    {
      "resource": {
        "resourceType": "Measure",
        "id": "0",
        "url": "0",
        "status": "active",
        "subjectCodeableConcept": {
          "coding": [
            {
              "system": "http://hl7.org/fhir/resource-types",
              "code": "Patient"
            }
          ]
        },
        "library": [
          "0"
        ],
        "scoring": {
          "coding": [
            {
              "system": "http://terminology.hl7.org/CodeSystem/measure-scoring",
              "code": "cohort"
            }
          ]
        },
        "group": [
          {
            "population": [
              {
                "code": {
                  "coding": [
                    {
                      "system": "http://terminology.hl7.org/CodeSystem/measure-population",
                      "code": "initial-population"
                    }
                  ]
                },
                "criteria": {
                  "language": "text/cql-identifier",
                  "expression": "InInitialPopulation"
                }
              }
            ]
          }
        ]
      },
      "request": {
        "method": "PUT",
        "url": "Measure/0"
      }
    }
  ]
}
